### File1
### Start time : 2024/04/10 14:26:51
### ACC FSR:8G
### GYRO FSR:1000
### MAG DATA:Raw_MAG
### Interrupt Threshold:0102
### Data Rate:50Hz
### Data Type:9X DATA
### Feature:6X_LP_QUAT
### Gyro Cal:NO
### Gyro Data:CAL
### Acc Data:RAW
accX, accY, accZ, gyroX, gyroY, gyroZ, magX, magY, magZ
-0.063, 0.001, 1.006, -9.003, 8.453, 3.296, 0.0, 0.0, 0.0
-0.064, 0.0, 1.004, -9.155, 8.484, 3.357, 0.0, 0.0, 0.0
-0.063, -0.064, 1.004, -9.094, 8.301, 3.51, 0.0, 0.0, 0.0
0.0, -0.064, 1.004, -9.033, 8.331, 3.51, 0.0, 0.0, 0.0
0.001, 0.001, 1.004, -8.942, 8.301, 3.479, 0.0, 0.0, 0.0
-0.063, -0.063, 1.005, -9.003, 8.301, 3.418, 0.0, 0.0, 0.0
-0.064, -0.063, 1.006, -8.82, 8.423, 3.265, 0.0, 0.0, 0.0
0.0, -0.064, 1.004, -9.003, 8.301, 3.235, 0.0, 0.0, 0.0
-0.063, -0.063, 1.005, -9.064, 8.331, 3.418, 0.0, 0.0, 0.0
-0.064, 0.0, 1.006, -9.033, 8.209, 3.326, 0.0, 0.0, 0.0
0.0, 0.0, 1.006, -8.972, 8.301, 3.357, 0.0, 0.0, 0.0
-0.063, -0.063, 1.006, -8.972, 8.453, 3.326, 0.0, 0.0, 0.0
-0.063, -0.063, 1.006, -9.003, 8.362, 3.387, 0.0, 0.0, 0.0
-0.063, 0.001, 1.005, -8.942, 8.484, 3.265, 0.0, 0.0, 0.0
-0.064, 0.0, 1.005, -9.125, 8.392, 3.51, 0.0, 0.0, 0.0
-0.064, 0.0, 1.006, -9.094, 8.148, 3.448, 0.0, 0.0, 0.0
-0.063, -0.063, 1.005, -8.942, 8.301, 3.418, 0.0, 0.0, 0.0
-0.064, 0.0, 1.005, -8.881, 8.453, 3.235, 0.0, 0.0, 0.0
0.001, 0.002, 1.006, -8.881, 8.392, 3.235, 0.0, 0.0, 0.0
0.001, 0.001, 1.005, -8.85, 8.423, 3.235, 0.0, 0.0, 0.0
-0.063, 0.0, 1.006, -8.911, 8.514, 3.387, 0.0, 0.0, 0.0
-0.063, 0.0, 1.006, -9.003, 8.301, 3.479, 0.0, 0.0, 0.0
0.0, -0.063, 1.004, -8.972, 8.301, 3.143, 0.0, 0.0, 0.0
-0.063, -0.063, 1.006, -8.881, 8.301, 3.204, 0.0, 0.0, 0.0
0.001, 0.001, 1.006, -9.155, 8.24, 3.296, 0.0, 0.0, 0.0
0.0, 0.001, 1.005, -9.094, 8.392, 3.265, 0.0, 0.0, 0.0
-0.064, -0.063, 1.005, -9.033, 8.423, 3.174, 0.0, 0.0, 0.0
-0.063, -0.063, 1.005, -8.972, 8.514, 3.235, 0.0, 0.0, 0.0
0.0, 0.0, 1.006, -9.003, 8.362, 3.326, 0.0, 0.0, 0.0
-0.063, 0.0, 1.005, -8.911, 8.362, 3.265, 0.0, 0.0, 0.0
0.0, 0.0, 1.005, -9.155, 8.331, 3.265, 0.0, 0.0, 0.0
0.0, 0.001, 1.005, -9.155, 8.392, 3.265, 0.0, 0.0, 0.0
-0.064, 0.001, 1.006, -9.003, 8.301, 3.204, 0.0, 0.0, 0.0
-0.063, 0.002, 1.005, -8.942, 8.362, 3.357, 0.0, 0.0, 0.0
-0.063, 0.0, 1.005, -9.033, 8.453, 3.174, 0.0, 0.0, 0.0
-0.064, 0.002, 1.007, -9.003, 8.362, 3.357, 0.0, 0.0, 0.0
0.0, 0.0, 1.007, -9.064, 8.209, 3.448, 0.0, 0.0, 0.0
-0.065, -0.063, 1.005, -9.186, 8.301, 3.296, 0.0, 0.0, 0.0
-0.063, -0.063, 1.006, -9.064, 8.453, 3.326, 0.0, 0.0, 0.0
-0.063, 0.001, 1.005, -9.003, 8.453, 3.265, 0.0, 0.0, 0.0
-0.063, -0.063, 1.004, -8.789, 8.484, 3.418, 0.0, 0.0, 0.0
-0.063, 0.0, 1.006, -8.972, 8.423, 3.448, 0.0, 0.0, 0.0
-0.064, 0.0, 1.006, -9.003, 8.484, 3.326, 0.0, 0.0, 0.0
-0.063, 0.0, 1.005, -9.186, 8.362, 3.265, 0.0, 0.0, 0.0
0.0, 0.0, 1.005, -9.125, 8.423, 3.418, 0.0, 0.0, 0.0
-0.064, 0.001, 1.005, -8.972, 8.453, 3.143, 0.0, 0.0, 0.0
0.001, 0.002, 1.006, -8.911, 8.606, 3.296, 0.0, 0.0, 0.0
0.0, -0.063, 1.006, -8.942, 8.514, 3.357, 0.0, 0.0, 0.0
-0.063, 0.0, 1.005, -8.942, 8.301, 3.235, 0.0, 0.0, 0.0
-0.064, -0.064, 1.006, -9.003, 8.331, 3.357, 0.0, 0.0, 0.0
-0.063, -0.063, 1.007, -8.972, 8.392, 3.296, 0.0, 0.0, 0.0
-0.064, 0.0, 1.005, -9.064, 8.453, 3.204, 0.0, 0.0, 0.0
0.001, 0.0, 1.005, -8.82, 8.301, 3.326, 0.0, 0.0, 0.0
-0.063, -0.063, 1.004, -8.85, 8.514, 3.235, 0.0, 0.0, 0.0
-0.063, 0.0, 1.007, -8.942, 8.301, 3.296, 0.0, 0.0, 0.0
-0.064, 0.0, 1.004, -8.942, 8.301, 3.448, 0.0, 0.0, 0.0
-0.063, 0.0, 1.004, -8.942, 8.27, 3.326, 0.0, 0.0, 0.0
-0.063, 0.0, 1.004, -8.942, 8.453, 3.204, 0.0, 0.0, 0.0
-0.064, 0.0, 1.004, -8.942, 8.453, 3.204, 0.0, 0.0, 0.0
-0.063, 0.001, 1.007, -9.125, 8.24, 3.326, 0.0, 0.0, 0.0
0.001, -0.063, 1.006, -9.186, 8.331, 3.326, 0.0, 0.0, 0.0
0.0, -0.063, 1.005, -9.033, 8.27, 3.448, 0.0, 0.0, 0.0
-0.064, 0.0, 1.007, -8.942, 8.362, 3.357, 0.0, 0.0, 0.0
-0.063, 0.001, 1.005, -8.972, 8.453, 3.296, 0.0, 0.0, 0.0
0.001, 0.0, 1.005, -8.881, 8.331, 3.326, 0.0, 0.0, 0.0
0.0, 0.001, 1.007, -8.942, 8.392, 3.326, 0.0, 0.0, 0.0
0.001, 0.001, 1.006, -9.033, 8.392, 3.296, 0.0, 0.0, 0.0
0.0, -0.063, 1.005, -8.911, 8.484, 3.296, 0.0, 0.0, 0.0
0.0, 0.0, 1.005, -9.003, 8.453, 3.296, 0.0, 0.0, 0.0
0.0, 0.0, 1.005, -9.033, 8.331, 3.204, 0.0, 0.0, 0.0
-0.064, -0.063, 1.004, -9.094, 8.392, 3.235, 0.0, 0.0, 0.0
-0.063, 0.0, 1.005, -8.942, 8.423, 3.418, 0.0, 0.0, 0.0
0.001, 0.0, 1.005, -9.033, 8.331, 3.326, 0.0, 0.0, 0.0
-0.063, 0.0, 1.004, -8.972, 8.24, 3.357, 0.0, 0.0, 0.0
0.0, 0.0, 1.005, -9.033, 8.392, 3.326, 0.0, 0.0, 0.0
-0.063, 0.0, 1.003, -9.064, 8.301, 3.296, 0.0, 0.0, 0.0
0.001, 0.001, 1.005, -9.125, 8.484, 3.143, 0.0, 0.0, 0.0
-0.063, -0.063, 1.005, -9.033, 8.362, 3.296, 0.0, 0.0, 0.0
-0.063, 0.001, 1.005, -8.911, 8.392, 3.357, 0.0, 0.0, 0.0
-0.063, -0.063, 1.005, -8.789, 8.392, 3.265, 0.0, 0.0, 0.0
-0.063, 0.001, 1.004, -8.972, 8.453, 3.143, 0.0, 0.0, 0.0
0.0, -0.063, 1.005, -8.911, 8.392, 3.235, 0.0, 0.0, 0.0
0.0, -0.063, 1.007, -8.942, 8.27, 3.082, 0.0, 0.0, 0.0
-0.063, -0.063, 1.005, -8.911, 8.301, 3.265, 0.0, 0.0, 0.0
0.0, -0.063, 1.004, -9.033, 8.392, 3.479, 0.0, 0.0, 0.0
0.0, 0.001, 1.005, -8.881, 8.301, 3.357, 0.0, 0.0, 0.0
-0.063, 0.0, 1.004, -8.85, 8.423, 3.265, 0.0, 0.0, 0.0
-0.064, -0.063, 1.006, -9.155, 8.209, 3.296, 0.0, 0.0, 0.0
-0.063, 0.001, 1.006, -8.972, 8.331, 3.326, 0.0, 0.0, 0.0
0.001, 0.0, 1.005, -9.033, 8.484, 3.296, 0.0, 0.0, 0.0
0.0, 0.001, 1.007, -9.003, 8.301, 3.204, 0.0, 0.0, 0.0
0.001, 0.001, 1.006, -8.881, 8.24, 3.326, 0.0, 0.0, 0.0
-0.064, 0.0, 1.006, -9.094, 8.209, 3.387, 0.0, 0.0, 0.0
-0.063, 0.001, 1.005, -9.094, 8.331, 3.418, 0.0, 0.0, 0.0
-0.063, -0.063, 1.005, -9.064, 8.453, 3.296, 0.0, 0.0, 0.0
-0.063, -0.063, 1.005, -9.125, 8.331, 3.357, 0.0, 0.0, 0.0
0.0, 0.0, 1.007, -8.881, 8.423, 3.357, 0.0, 0.0, 0.0
0.0, -0.064, 1.004, -9.094, 8.24, 3.296, 0.0, 0.0, 0.0
0.0, -0.063, 1.003, -9.155, 8.362, 3.235, 0.0, 0.0, 0.0
-0.063, 0.0, 1.005, -9.064, 8.484, 3.326, 0.0, 0.0, 0.0
-0.064, -0.063, 1.005, -9.003, 8.423, 3.265, 0.0, 0.0, 0.0
-0.063, 0.0, 1.005, -8.972, 8.27, 3.357, 0.0, 0.0, 0.0
0.0, 0.0, 1.006, -8.911, 8.27, 3.357, 0.0, 0.0, 0.0
-0.063, 0.0, 1.005, -8.972, 8.27, 3.387, 0.0, 0.0, 0.0
-0.063, 0.0, 1.005, -9.003, 8.301, 3.357, 0.0, 0.0, 0.0
-0.063, 0.0, 1.005, -8.972, 8.362, 3.387, 0.0, 0.0, 0.0
-0.063, 0.0, 1.005, -9.094, 8.331, 3.448, 0.0, 0.0, 0.0
0.0, -0.063, 1.005, -9.064, 8.423, 3.296, 0.0, 0.0, 0.0
-0.063, -0.063, 1.005, -9.033, 8.209, 3.51, 0.0, 0.0, 0.0
-0.063, 0.0, 1.003, -8.972, 8.24, 3.51, 0.0, 0.0, 0.0
-0.064, -0.063, 1.002, -8.789, 8.453, 3.296, 0.0, 0.0, 0.0
-0.063, -0.063, 1.006, -8.881, 8.484, 3.296, 0.0, 0.0, 0.0
-0.064, 0.001, 1.01, -9.003, 8.423, 3.357, 0.0, 0.0, 0.0
0.001, 0.0, 1.005, -9.064, 8.301, 3.357, 0.0, 0.0, 0.0
0.001, -0.064, 1.002, -8.972, 8.484, 3.235, 0.0, 0.0, 0.0
-0.064, -0.063, 1.009, -8.942, 8.301, 3.265, 0.0, 0.0, 0.0
0.001, -0.063, 1.007, -9.216, 8.301, 3.296, 0.0, 0.0, 0.0
-0.063, 0.001, 1.008, -9.46, 8.575, 3.326, 0.0, 0.0, 0.0
0.0, 0.0, 1.004, -9.644, 8.453, 3.357, 0.0, 0.0, 0.0
-0.064, -0.064, 1.003, -9.46, 8.453, 3.357, 0.0, 0.0, 0.0
0.001, 0.001, 1.009, -9.674, 8.484, 3.357, 0.0, 0.0, 0.0
0.001, 0.001, 1.004, -9.552, 8.606, 3.204, 0.0, 0.0, 0.0
-0.063, -0.063, 1.002, -9.521, 8.331, 3.265, 0.0, 0.0, 0.0
-0.064, -0.063, 1.003, -9.369, 8.453, 3.174, 0.0, 0.0, 0.0
-0.064, -0.063, 1.005, -9.247, 8.179, 3.113, 0.0, 0.0, 0.0
0.001, -0.063, 1.004, -9.247, 8.423, 3.296, 0.0, 0.0, 0.0
-0.064, -0.063, 1.008, -9.094, 8.301, 3.265, 0.0, 0.0, 0.0
0.0, -0.063, 1.006, -9.216, 8.423, 3.357, 0.0, 0.0, 0.0
-0.063, -0.064, 1.006, -9.003, 8.392, 3.387, 0.0, 0.0, 0.0
-0.063, 0.0, 1.005, -8.911, 8.453, 3.326, 0.0, 0.0, 0.0
0.0, -0.063, 1.005, -9.064, 8.331, 3.235, 0.0, 0.0, 0.0
-0.064, 0.0, 1.005, -8.881, 8.362, 3.235, 0.0, 0.0, 0.0
-0.064, 0.0, 1.005, -8.698, 8.392, 3.265, 0.0, 0.0, 0.0
-0.063, 0.0, 1.005, -8.972, 8.301, 3.296, 0.0, 0.0, 0.0
-0.063, 0.0, 1.004, -9.033, 8.24, 3.265, 0.0, 0.0, 0.0
-0.063, -0.063, 1.004, -9.064, 8.423, 3.174, 0.0, 0.0, 0.0
0.0, -0.063, 1.005, -9.064, 8.392, 3.143, 0.0, 0.0, 0.0
-0.063, -0.064, 1.006, -8.972, 8.545, 3.235, 0.0, 0.0, 0.0
0.0, 0.0, 1.001, -9.033, 8.362, 3.448, 0.0, 0.0, 0.0
-0.064, 0.001, 1.002, -8.728, 8.179, 3.326, 0.0, 0.0, 0.0
-0.063, 0.0, 1.003, -8.484, 8.179, 3.204, 0.0, 0.0, 0.0
-0.065, 0.003, 0.93, -7.965, 8.209, 3.082, 0.0, 0.0, 0.0
0.0, -0.063, 0.969, -8.82, 8.24, 3.326, 0.0, 0.0, 0.0
-0.063, 0.0, 0.931, -9.766, 8.82, 3.387, 0.0, 0.0, 0.0
-0.066, 0.0, 0.934, -9.094, 8.209, 3.418, 0.0, 0.0, 0.0
0.001, -0.063, 1.015, -8.606, 8.148, 3.265, 0.0, 0.0, 0.0
-0.065, 0.0, 0.937, -9.155, 8.514, 3.357, 0.0, 0.0, 0.0
0.002, 0.0, 1.003, -8.698, 8.24, 3.326, 0.0, 0.0, 0.0
-0.065, -0.063, 1.01, -8.636, 8.423, 3.418, 0.0, 0.0, 0.0
0.0, 0.001, 1.005, -8.85, 8.148, 3.387, 0.0, 0.0, 0.0
-0.066, -0.063, 1.006, -9.033, 8.514, 3.448, 0.0, 0.0, 0.0
0.003, -0.063, 1.008, -9.064, 7.996, 3.418, 0.0, 0.0, 0.0
-0.066, -0.063, 0.937, -9.125, 8.484, 3.174, 0.0, 0.0, 0.0
-0.063, 0.001, 1.009, -8.881, 8.118, 3.326, 0.0, 0.0, 0.0
0.001, 0.0, 1.007, -8.82, 8.301, 3.235, 0.0, 0.0, 0.0
-0.064, 0.002, 1.002, -9.125, 8.392, 3.326, 0.0, 0.0, 0.0
-0.063, 0.002, 1.005, -8.82, 8.362, 3.326, 0.0, 0.0, 0.0
0.0, -0.063, 1.008, -8.85, 8.209, 3.326, 0.0, 0.0, 0.0
-0.063, 0.0, 1.003, -9.155, 8.362, 3.357, 0.0, 0.0, 0.0
0.0, 0.0, 1.004, -9.094, 8.362, 3.418, 0.0, 0.0, 0.0
0.0, -0.063, 1.004, -8.881, 8.453, 3.204, 0.0, 0.0, 0.0
-0.064, 0.0, 1.004, -9.033, 8.331, 3.357, 0.0, 0.0, 0.0
0.001, -0.063, 1.008, -8.911, 8.24, 3.296, 0.0, 0.0, 0.0
-0.064, 0.002, 1.005, -9.125, 8.423, 3.387, 0.0, 0.0, 0.0
0.0, 0.0, 1.004, -8.972, 8.27, 3.174, 0.0, 0.0, 0.0
0.001, 0.0, 1.007, -8.942, 8.331, 3.296, 0.0, 0.0, 0.0
-0.063, 0.001, 1.006, -9.094, 8.392, 3.479, 0.0, 0.0, 0.0
-0.063, -0.063, 1.003, -9.125, 8.301, 3.418, 0.0, 0.0, 0.0
-0.063, -0.063, 1.006, -8.911, 8.484, 3.143, 0.0, 0.0, 0.0
-0.064, 0.001, 1.005, -9.033, 8.423, 3.387, 0.0, 0.0, 0.0
-0.063, 0.001, 1.005, -9.064, 8.484, 3.296, 0.0, 0.0, 0.0
0.0, 0.0, 1.005, -8.942, 8.514, 3.265, 0.0, 0.0, 0.0
-0.064, 0.0, 1.003, -8.942, 8.484, 3.387, 0.0, 0.0, 0.0
-0.065, -0.064, 1.005, -9.003, 8.514, 3.296, 0.0, 0.0, 0.0
-0.063, 0.0, 1.006, -9.064, 8.392, 3.387, 0.0, 0.0, 0.0
-0.064, -0.063, 1.004, -8.85, 8.331, 3.418, 0.0, 0.0, 0.0
-0.063, -0.063, 1.005, -9.033, 8.392, 3.326, 0.0, 0.0, 0.0
-0.064, -0.063, 1.006, -9.033, 8.362, 3.479, 0.0, 0.0, 0.0
-0.064, 0.0, 1.002, -8.911, 8.392, 3.357, 0.0, 0.0, 0.0
-0.064, -0.063, 1.008, -8.911, 8.27, 3.296, 0.0, 0.0, 0.0
0.001, 0.0, 1.006, -9.094, 8.423, 3.357, 0.0, 0.0, 0.0
-0.063, -0.063, 1.003, -9.094, 8.362, 3.387, 0.0, 0.0, 0.0
-0.063, 0.0, 1.007, -8.972, 8.423, 3.296, 0.0, 0.0, 0.0
-0.064, 0.001, 1.005, -8.881, 8.362, 3.235, 0.0, 0.0, 0.0
-0.066, 0.001, 1.004, -8.911, 8.24, 3.143, 0.0, 0.0, 0.0
-0.063, -0.063, 1.004, -9.125, 8.179, 3.357, 0.0, 0.0, 0.0
-0.063, 0.002, 1.006, -9.033, 8.27, 3.265, 0.0, 0.0, 0.0
-0.064, 0.0, 1.006, -8.911, 8.423, 3.235, 0.0, 0.0, 0.0
0.001, -0.063, 1.007, -9.064, 8.331, 3.235, 0.0, 0.0, 0.0
-0.065, 0.0, 1.006, -9.094, 8.392, 3.326, 0.0, 0.0, 0.0
-0.063, -0.063, 1.005, -9.186, 8.301, 3.326, 0.0, 0.0, 0.0
-0.063, -0.064, 1.006, -9.094, 8.362, 3.448, 0.0, 0.0, 0.0
-0.064, 0.001, 1.005, -9.033, 8.423, 3.326, 0.0, 0.0, 0.0
-0.063, 0.0, 1.005, -8.942, 8.423, 3.296, 0.0, 0.0, 0.0
-0.064, -0.063, 1.004, -9.003, 8.514, 3.387, 0.0, 0.0, 0.0
-0.063, 0.0, 1.006, -8.85, 8.484, 3.387, 0.0, 0.0, 0.0
-0.064, -0.063, 1.005, -8.972, 8.423, 3.296, 0.0, 0.0, 0.0
-0.063, 0.0, 1.003, -9.003, 8.423, 3.204, 0.0, 0.0, 0.0
-0.064, 0.0, 1.006, -9.003, 8.301, 3.296, 0.0, 0.0, 0.0
-0.063, -0.063, 1.005, -9.064, 8.423, 3.296, 0.0, 0.0, 0.0
-0.063, -0.063, 1.004, -9.094, 8.514, 3.387, 0.0, 0.0, 0.0
-0.064, 0.0, 1.006, -9.003, 8.27, 3.326, 0.0, 0.0, 0.0
0.0, 0.0, 1.006, -8.972, 8.24, 3.265, 0.0, 0.0, 0.0
-0.064, -0.063, 1.004, -8.942, 8.392, 3.357, 0.0, 0.0, 0.0
-0.064, 0.001, 1.005, -8.667, 8.514, 3.204, 0.0, 0.0, 0.0
0.001, -0.063, 1.006, -8.789, 8.27, 3.387, 0.0, 0.0, 0.0
-0.063, 0.0, 1.006, -8.789, 8.27, 3.357, 0.0, 0.0, 0.0
-0.064, 0.001, 1.006, -8.85, 8.179, 3.418, 0.0, 0.0, 0.0
0.0, 0.0, 1.005, -8.942, 8.392, 3.204, 0.0, 0.0, 0.0
0.0, 0.0, 1.003, -8.972, 8.484, 3.235, 0.0, 0.0, 0.0
-0.063, 0.0, 1.007, -9.003, 8.301, 3.235, 0.0, 0.0, 0.0
-0.063, -0.063, 1.005, -8.881, 8.484, 3.387, 0.0, 0.0, 0.0
-0.063, 0.0, 1.004, -9.216, 8.301, 3.448, 0.0, 0.0, 0.0
-0.063, -0.063, 1.004, -9.064, 8.209, 3.357, 0.0, 0.0, 0.0
-0.064, 0.0, 1.007, -8.911, 8.24, 3.448, 0.0, 0.0, 0.0